#                                                                     
#  /$$     /$$ /$$$$$$  /$$      /$$ /$$$$$$$   /$$$$$$               
# |  $$   /$$//$$__  $$| $$$    /$$$| $$__  $$ /$$__  $$              
#  \  $$ /$$/| $$  \ $$| $$$$  /$$$$| $$  \ $$| $$  \ $$              
#   \  $$$$/ | $$$$$$$$| $$ $$/$$ $$| $$$$$$$ | $$  | $$              
#    \  $$/  | $$__  $$| $$  $$$| $$| $$__  $$| $$  | $$              
#     | $$   | $$  | $$| $$\  $ | $$| $$  \ $$| $$  | $$              
#     | $$   | $$  | $$| $$ \/  | $$| $$$$$$$/|  $$$$$$/              
#     |__/   |__/  |__/|__/     |__/|_______/  \______/               
#                                                                     
# Version 5.1.0 Revision 22214 Hash (prev commit) aa5047c1f           
#           Branch is fixes-photoluminescence                         
#                 MPI+HDF5_MPI_IO Build                               
#               http://www.yambo-code.org                             
#
# Absorption @ Q(1):  0.100000000E-4   0.00000000      0.00000000    [q->0 direction]
#
# [GEN] GF Energies                               : Slater exchange(X)+Perdew & Zunger(C)
# [GEN] Green`s Function                          : Resonant
#
# [GEN] Gauge                                     : Length
# [GEN] [r,Vnl] included                          : yes
#
# DIP band range                                  :   2   7
# DIP band range limits                           :   4   5
# DIP e/h energy range                            :  -1.00000000     -1.00000000    [eV]
# RL vectors in the sum                           :   749
# [r,Vnl] included                                : yes
# Bands ordered                                   : yes
# Direct v evaluation                             : no
# Approach used                                   : G-space v
# Dipoles computed                                : R V P
# Wavefunctions                                   : Slater exchange(X)+Perdew & Zunger(C)
#
#
# [K] Identifier                                  :   7852
# [K] Dimension                                   :  2304
# [K] Bands                                       :   2   7
# [K] Exchange res                                : no
# [K] Correlation res                             : no
# [K] Kernel`s coupling                           : no
# [K] Exchange cpl                                : no
# [K] Correlation cpl                             : no
# [K] W interaction is bare                       : no
# [K] ALDA kernel in R-space                      : no
# [K] E/h energy range                            :  -1.00000000     -1.00000000    [eV]
# [K] Coupling range                              :   100.000000      100.000000    [o/o]
# [X] Response Kind                               : BAR
#
# Diamagnetic term                                
# Ao                                              :  -6.56691268    [nel]
# A                                               :   0.00000000    [nel]
#
#    E[1] [eV]          Im(eps)            Re(eps)            Im(eps_o)          Re(eps_o)
#
        7.500000           0.006277           1.466810           0.006277           1.466810
        7.558528           0.006370           1.469271           0.006370           1.469271
        7.617057           0.006465           1.471761           0.006465           1.471761
        7.675585           0.006561           1.474279           0.006561           1.474279
        7.734114           0.006659           1.476827           0.006659           1.476827
        7.792642           0.006760           1.479404           0.006760           1.479404
        7.851171           0.006862           1.482011           0.006862           1.482011
        7.909699           0.006966           1.484649           0.006966           1.484649
        7.968227           0.007073           1.487319           0.007073           1.487319
        8.026756           0.007181           1.490021           0.007181           1.490021
        8.085284           0.007292           1.492755           0.007292           1.492755
        8.143813           0.007405           1.495523           0.007405           1.495523
        8.202341           0.007521           1.498325           0.007521           1.498325
        8.260870           0.007639           1.501161           0.007639           1.501161
        8.319398           0.007759           1.504033           0.007759           1.504033
        8.377926           0.007882           1.506940           0.007882           1.506940
        8.436455           0.008008           1.509885           0.008008           1.509885
        8.494983           0.008136           1.512867           0.008136           1.512867
        8.553512           0.008267           1.515887           0.008267           1.515887
        8.612040           0.008401           1.518946           0.008401           1.518946
        8.670569           0.008538           1.522046           0.008538           1.522046
        8.729097           0.008678           1.525186           0.008678           1.525186
        8.787625           0.008821           1.528367           0.008821           1.528367
        8.846154           0.008968           1.531592           0.008968           1.531592
        8.904682           0.009118           1.534859           0.009118           1.534859
        8.963211           0.009271           1.538171           0.009271           1.538171
        9.021739           0.009428           1.541529           0.009428           1.541529
        9.080268           0.009588           1.544932           0.009588           1.544932
        9.138796           0.009752           1.548384           0.009752           1.548384
        9.197324           0.009921           1.551884           0.009921           1.551884
        9.255853           0.010093           1.555433           0.010093           1.555433
        9.314381           0.010269           1.559033           0.010269           1.559033
        9.372910           0.010450           1.562686           0.010450           1.562686
        9.431438           0.010635           1.566391           0.010635           1.566391
        9.489967           0.010825           1.570151           0.010825           1.570151
        9.548495           0.011020           1.573967           0.011020           1.573967
        9.607023           0.011220           1.577840           0.011220           1.577840
        9.665552           0.011425           1.581771           0.011425           1.581771
        9.724080           0.011635           1.585763           0.011635           1.585763
        9.782609           0.011851           1.589816           0.011851           1.589816
        9.841137           0.012072           1.593932           0.012072           1.593932
        9.899666           0.012299           1.598113           0.012299           1.598113
        9.958194           0.012533           1.602360           0.012533           1.602360
        10.01672           0.012773           1.606676           0.012773           1.606676
        10.07525           0.013020           1.611061           0.013020           1.611061
        10.13378           0.013273           1.615519           0.013273           1.615519
        10.19231           0.013534           1.620050           0.013534           1.620050
        10.25084           0.013802           1.624657           0.013802           1.624657
        10.30936           0.014078           1.629341           0.014078           1.629341
        10.36789           0.014362           1.634106           0.014362           1.634106
        10.42642           0.014655           1.638954           0.014655           1.638954
        10.48495           0.014956           1.643886           0.014956           1.643886
        10.54348           0.015266           1.648905           0.015266           1.648905
        10.60201           0.015586           1.654015           0.015586           1.654015
        10.66054           0.015916           1.659216           0.015916           1.659216
        10.71906           0.016257           1.664514           0.016257           1.664514
        10.77759           0.016608           1.669909           0.016608           1.669909
        10.83612           0.016971           1.675406           0.016971           1.675406
        10.89465           0.017345           1.681007           0.017345           1.681007
        10.95318           0.017732           1.686716           0.017732           1.686716
        11.01171           0.018132           1.692537           0.018132           1.692537
        11.07023           0.018546           1.698472           0.018546           1.698472
        11.12876           0.018974           1.704527           0.018974           1.704527
        11.18729           0.019417           1.710704           0.019417           1.710704
        11.24582           0.019877           1.717009           0.019877           1.717009
        11.30435           0.020352           1.723445           0.020352           1.723445
        11.36288           0.020846           1.730018           0.020846           1.730018
        11.42140           0.021358           1.736732           0.021358           1.736732
        11.47993           0.021889           1.743592           0.021889           1.743592
        11.53846           0.022441           1.750605           0.022441           1.750605
        11.59699           0.023015           1.757774           0.023015           1.757774
        11.65552           0.023611           1.765108           0.023611           1.765108
        11.71405           0.024232           1.772612           0.024232           1.772612
        11.77258           0.024879           1.780293           0.024879           1.780293
        11.83110           0.025554           1.788158           0.025554           1.788158
        11.88963           0.026257           1.796215           0.026257           1.796215
        11.94816           0.026991           1.804472           0.026991           1.804472
        12.00669           0.027759           1.812938           0.027759           1.812938
        12.06522           0.028561           1.821621           0.028561           1.821621
        12.12375           0.029401           1.830532           0.029401           1.830532
        12.18227           0.030281           1.839682           0.030281           1.839682
        12.24080           0.031204           1.849081           0.031204           1.849081
        12.29933           0.032174           1.858741           0.032174           1.858741
        12.35786           0.033193           1.868675           0.033193           1.868675
        12.41639           0.034266           1.878897           0.034266           1.878897
        12.47492           0.035396           1.889423           0.035396           1.889423
        12.53344           0.036589           1.900267           0.036589           1.900267
        12.59197           0.037849           1.911447           0.037849           1.911447
        12.65050           0.039184           1.922983           0.039184           1.922983
        12.70903           0.040598           1.934893           0.040598           1.934893
        12.76756           0.042100           1.947201           0.042100           1.947201
        12.82609           0.043698           1.959931           0.043698           1.959931
        12.88462           0.045401           1.973108           0.045401           1.973108
        12.94314           0.047220           1.986763           0.047220           1.986763
        13.00167           0.049168           2.000926           0.049168           2.000926
        13.06020           0.051258           2.015632           0.051258           2.015632
        13.11873           0.053508           2.030921           0.053508           2.030921
        13.17726           0.055935           2.046835           0.055935           2.046835
        13.23579           0.058563           2.063422           0.058563           2.063422
        13.29431           0.061417           2.080736           0.061417           2.080736
        13.35284           0.064529           2.098837           0.064529           2.098837
        13.41137           0.067935           2.117792           0.067935           2.117792
        13.46990           0.071681           2.137680           0.071681           2.137680
        13.52843           0.075820           2.158587           0.075820           2.158587
        13.58696           0.080419           2.180613           0.080419           2.180613
        13.64548           0.085560           2.203874           0.085560           2.203874
        13.70401           0.091345           2.228502           0.091345           2.228502
        13.76254           0.097906           2.254651           0.097906           2.254651
        13.82107           0.105409           2.282500           0.105409           2.282500
        13.87960           0.114073           2.312259           0.114073           2.312259
        13.93813           0.124185           2.344171           0.124185           2.344171
        13.99666           0.136132           2.378518           0.136132           2.378518
        14.05518           0.150442           2.415623           0.150442           2.415623
        14.11371           0.167850           2.455846           0.167850           2.455846
        14.17224           0.189398           2.499560           0.189398           2.499560
        14.23077           0.216586           2.547088           0.216586           2.547088
        14.28930           0.251609           2.598554           0.251609           2.598554
        14.34783           0.297687           2.653521           0.297687           2.653521
        14.40635           0.359468           2.710185           0.359468           2.710185
        14.46488           0.443199           2.763635           0.443199           2.763635
        14.52341           0.555453           2.802534           0.555453           2.802534
        14.58194           0.696987           2.804822           0.696987           2.804822
        14.64047           0.847064           2.740185           0.847064           2.740185
        14.69900           0.949684           2.598733           0.949684           2.598733
        14.75753           0.950020           2.432913           0.950020           2.432913
        14.81605           0.864845           2.323142           0.864845           2.323142
        14.87458           0.760624           2.295269           0.760624           2.295269
        14.93311           0.682681           2.323420           0.682681           2.323420
        14.99164           0.641652           2.373308           0.641652           2.373308
        15.05017           0.627556           2.420292           0.627556           2.420292
        15.10870           0.619524           2.455955           0.619524           2.455955
        15.16722           0.601120           2.492534           0.601120           2.492534
        15.22575           0.576091           2.548264           0.576091           2.548264
        15.28428           0.559096           2.628066           0.559096           2.628066
        15.34281           0.559773           2.726683           0.559773           2.726683
        15.40134           0.581531           2.838529           0.581531           2.838529
        15.45987           0.626087           2.960682           0.626087           2.960682
        15.51839           0.696410           3.091964           0.696410           3.091964
        15.57692           0.798110           3.231283           0.798110           3.231283
        15.63545           0.940303           3.375576           0.940303           3.375576
        15.69398           1.135959           3.516505           1.135959           3.516505
        15.75251           1.400086           3.634829           1.400086           3.634829
        15.81104           1.741005           3.693250           1.741005           3.693250
        15.86957           2.138781           3.637662           2.138781           3.637662
        15.92809           2.523859           3.429877           2.523859           3.429877
        15.98662           2.809323           3.100889           2.809323           3.100889
        16.04515           2.970814           2.730025           2.970814           2.730025
        16.10368           3.038928           2.356391           3.038928           2.356391
        16.16221           3.021031           1.978189           3.021031           1.978189
        16.22074           2.892984           1.611603           2.892984           1.611603
        16.27926           2.641097           1.316245           2.641097           1.316245
        16.33779           2.314603           1.164534           2.314603           1.164534
        16.39632           2.006949           1.167959           2.006949           1.167959
        16.45485           1.782610           1.277988           1.782610           1.277988
        16.51338           1.660746           1.436942           1.660746           1.436942
        16.57191           1.637003           1.599231           1.637003           1.599231
        16.63043           1.695615           1.728345           1.695615           1.728345
        16.68896           1.807909           1.797252           1.807909           1.797252
        16.74749           1.938182           1.799537           1.938182           1.799537
        16.80602           2.064478           1.744843           2.064478           1.744843
        16.86455           2.174381           1.633709           2.174381           1.633709
        16.92308           2.236524           1.466706           2.236524           1.466706
        16.98161           2.216641           1.282475           2.216641           1.282475
        17.04013           2.131463           1.138116           2.131463           1.138116
        17.09866           2.031619           1.041722           2.031619           1.041722
        17.15719           1.929769           0.961175           1.929769           0.961175
        17.21572           1.798294           0.893081           1.798294           0.893081
        17.27425           1.632610           0.875056           1.632610           0.875056
        17.33278           1.470305           0.930898           1.470305           0.930898
        17.39130           1.350341           1.047917           1.350341           1.047917
        17.44983           1.290989           1.199891           1.290989           1.199891
        17.50836           1.297663           1.363946           1.297663           1.363946
        17.56689           1.373246           1.520381           1.373246           1.520381
        17.62542           1.520556           1.645347           1.520556           1.645347
        17.68395           1.735008           1.703175           1.735008           1.703175
        17.74247           1.985243           1.648070           1.985243           1.648070
        17.80100           2.193650           1.455088           2.193650           1.455088
        17.85953           2.265847           1.175957           2.265847           1.175957
        17.91806           2.182845           0.930982           2.182845           0.930982
        17.97659           2.026527           0.802241           2.026527           0.802241
        18.03512           1.891273           0.779341           1.891273           0.779341
        18.09365           1.819883           0.806157           1.819883           0.806157
        18.15217           1.808711           0.833315           1.808711           0.833315
        18.21070           1.837482           0.836775           1.837482           0.836775
        18.26923           1.892121           0.806918           1.892121           0.806918
        18.32776           1.962097           0.729710           1.962097           0.729710
        18.38629           2.021623           0.586129           2.021623           0.586129
        18.44482           2.020445           0.377653           2.020445           0.377653
        18.50334           1.914942           0.153042           1.914942           0.153042
        18.56187           1.713615          -0.017347           1.713615          -0.017347
        18.62040           1.469629          -0.094655           1.469629          -0.094655
        18.67893           1.236966          -0.085710           1.236966          -0.085710
        18.73746           1.044064          -0.019989           1.044064          -0.019989
        18.79599           0.896344           0.074136           0.896344           0.074136
        18.85452           0.788203           0.177506           0.788203           0.177506
        18.91304           0.710661           0.279037           0.710661           0.279037
        18.97157           0.654107           0.373681           0.654107           0.373681
        19.03010           0.610289           0.461847           0.610289           0.461847
        19.08863           0.575325           0.547458           0.575325           0.547458
        19.14716           0.550120           0.633519           0.550120           0.633519
        19.20569           0.537158           0.719780           0.537158           0.719780
        19.26421           0.538017           0.803671           0.538017           0.803671
        19.32274           0.552708           0.881441           0.552708           0.881441
        19.38127           0.578971           0.948855           0.578971           0.948855
        19.43980           0.611420           1.003134           0.611420           1.003134
        19.49833           0.643155           1.046241           0.643155           1.046241
        19.55686           0.670976           1.085576           0.670976           1.085576
        19.61538           0.699662           1.128994           0.699662           1.128994
        19.67391           0.740229           1.177677           0.740229           1.177677
        19.73244           0.803317           1.222836           0.803317           1.222836
        19.79097           0.892500           1.247117           0.892500           1.247117
        19.84950           0.997845           1.228893           0.997845           1.228893
        19.90803           1.090266           1.153794           1.090266           1.153794
        19.96656           1.129902           1.034708           1.129902           1.034708
        20.02508           1.097644           0.915622           1.097644           0.915622
        20.08361           1.014554           0.838339           1.014554           0.838339
        20.14214           0.918126           0.812824           0.918126           0.812824
        20.20067           0.833042           0.825532           0.833042           0.825532
        20.25920           0.766721           0.859034           0.766721           0.859034
        20.31773           0.716332           0.901362           0.716332           0.901362
        20.37625           0.675953           0.948514           0.675953           0.948514
        20.43478           0.643037           1.002084           0.643037           1.002084
        20.49331           0.619691           1.063173           0.619691           1.063173
        20.55184           0.608669           1.129785           0.608669           1.129785
        20.61037           0.611140           1.198869           0.611140           1.198869
        20.66890           0.627665           1.267512           0.627665           1.267512
        20.72742           0.658377           1.332011           0.658377           1.332011
        20.78595           0.701401           1.388167           0.701401           1.388167
        20.84448           0.752928           1.433717           0.752928           1.433717
        20.90301           0.810352           1.468887           0.810352           1.468887
        20.96154           0.873575           1.492643           0.873575           1.492643
        21.02007           0.940824           1.500100           0.940824           1.500100
        21.07860           1.003470           1.486089           1.003470           1.486089
        21.13712           1.046430           1.454035           1.046430           1.454035
        21.19565           1.059938           1.421785           1.059938           1.421785
        21.25418           1.052814           1.410379           1.052814           1.410379
        21.31271           1.046281           1.425753           1.046281           1.425753
        21.37124           1.055953           1.457103           1.055953           1.457103
        21.42977           1.083142           1.489254           1.083142           1.489254
        21.48829           1.118809           1.514717           1.118809           1.514717
        21.54682           1.154523           1.537608           1.154523           1.537608
        21.60535           1.191258           1.567162           1.191258           1.567162
        21.66388           1.238690           1.608206           1.238690           1.608206
        21.72241           1.308972           1.657485           1.308972           1.657485
        21.78094           1.412880           1.704510           1.412880           1.704510
        21.83946           1.557284           1.730579           1.557284           1.730579
        21.89799           1.737678           1.708440           1.737678           1.708440
        21.95652           1.928380           1.611324           1.928380           1.611324
        22.01505           2.083368           1.433001           2.083368           1.433001
        22.07358           2.159012           1.202546           2.159012           1.202546
        22.13211           2.142254           0.970269           2.142254           0.970269
        22.19064           2.051463           0.777819           2.051463           0.777819
        22.24916           1.917530           0.646359           1.917530           0.646359
        22.30769           1.771682           0.580626           1.771682           0.580626
        22.36622           1.641627           0.573277           1.641627           0.573277
        22.42475           1.548643           0.606594           1.548643           0.606594
        22.48328           1.503294           0.655353           1.503294           0.655353
        22.54181           1.502475           0.692350           1.502475           0.692350
        22.60033           1.528850           0.695415           1.528850           0.695415
        22.65886           1.554383           0.655997           1.554383           0.655997
        22.71739           1.551229           0.585006           1.551229           0.585006
        22.77592           1.505474           0.508004           1.505474           0.508004
        22.83445           1.422141           0.451310           1.422141           0.451310
        22.89298           1.318878           0.430956           1.318878           0.430956
        22.95151           1.216599           0.449515           1.216599           0.449515
        23.01003           1.131339           0.498254           1.131339           0.498254
        23.06856           1.069325           0.563526           1.069325           0.563526
        23.12709           1.027554           0.634382           1.027554           0.634382
        23.18562           0.999220           0.707479           0.999220           0.707479
        23.24415           0.980986           0.786256           0.980986           0.786256
        23.30268           0.976259           0.874720           0.976259           0.874720
        23.36120           0.992126           0.972364           0.992126           0.972364
        23.41973           1.035172           1.074012           1.035172           1.074012
        23.47826           1.109901           1.171399           1.109901           1.171399
        23.53679           1.218247           1.253718           1.218247           1.253718
        23.59532           1.358212           1.307680           1.358212           1.307680
        23.65385           1.521558           1.318694           1.521558           1.318694
        23.71237           1.691521           1.273967           1.691521           1.273967
        23.77090           1.841665           1.168384           1.841665           1.168384
        23.82943           1.939828           1.014002           1.939828           1.014002
        23.88796           1.963870           0.846159           1.963870           0.846159
        23.94649           1.921483           0.710151           1.921483           0.710151
        24.00502           1.848447           0.633255           1.848447           0.633255
        24.06355           1.784305           0.612845           1.784305           0.612845
        24.12207           1.754026           0.627707           1.754026           0.627707
        24.18060           1.766278           0.652022           1.766278           0.652022
        24.23913           1.817048           0.661900           1.817048           0.661900
        24.29766           1.892115           0.639491           1.892115           0.639491
        24.35619           1.971366           0.577067           1.971366           0.577067
        24.41472           2.035040           0.477634           2.035040           0.477634
        24.47324           2.068128           0.352327           2.068128           0.352327
        24.53177           2.062880           0.217180           2.062880           0.217180
        24.59030           2.020106           0.089109           2.020106           0.089109
        24.64883           1.948101          -0.018816           1.948101          -0.018816
        24.70736           1.858240          -0.100254           1.858240          -0.100254
        24.76589           1.760755          -0.153955           1.760755          -0.153955
        24.82441           1.664225          -0.181213           1.664225          -0.181213
        24.88294           1.575882          -0.185186           1.575882          -0.185186
        24.94147           1.501718          -0.170506           1.501718          -0.170506
        25.00000           1.446280          -0.143831           1.446280          -0.143831
# 
# 03/26/2024 at 21:51 yambo @ tcn530.local.snellius.surf.nl [start]
# 03/26/2024 at 21:51                                       [end]
#  
# Timing   [Min/Max/Average]: 07s/07s/07s
#
# .-Input file  Inputs/06_BSE
# | optics                           # [R] Linear Response optical properties
# | bss                              # [R] BSE solver
# | bse                              # [R][BSE] Bethe Salpeter Equation.
# | FFTGvecs=  749             RL    # [FFT] Plane-waves
# | BS_CPU= "2.2"                    # [PARALLEL] CPUs for each role
# | BS_ROLEs= "eh.k"                 # [PARALLEL] CPUs roles (k,eh,t)
# | BS_nCPU_LinAlg_INV= 1            # [PARALLEL] CPUs for Linear Algebra (if -1 it is automatically set)
# | BS_nCPU_LinAlg_DIAGO= 1          # [PARALLEL] CPUs for Linear Algebra (if -1 it is automatically set)
# | DIP_CPU= "2.2.1"                 # [PARALLEL] CPUs for each role
# | DIP_ROLEs= "v.c.k"               # [PARALLEL] CPUs roles (k,c,v)
# | BSKmod= ""                       # [BSE] IP/Hartree/HF/ALDA/SEX/BSfxc
# | BSEmod= "resonant"               # [BSE] resonant/retarded/coupling
# | BSSmod= "d"                      # [BSS] (h)aydock/(d)iagonalization/(s)lepc/(i)nversion/(t)ddft`
# | BSENGexx=  749             RL    # [BSK] Exchange components
# | % KfnQP_E
# |  5.800000 | 1.000000 | 1.000000 |        # [EXTQP BSK BSS] E parameters  (c/v) eV|adim|adim
# | %
# | EXCTemp= 0.000000          eV    # [EXCPH] Excitonic Temperature (for luminescence spectra)
# | % BSEQptR
# |  1 | 1 |                             # [BSK] Transferred momenta range
# | %
# | % BSEBands
# |   2 |  7 |                           # [BSK] Bands range
# | %
# | % BEnRange
# |   7.50000 | 25.00000 |         eV    # [BSS] Energy range
# | %
# | % BDmRange
# |  0.150000 | 0.300000 |         eV    # [BSS] Damping range
# | %
# | BEnSteps= 300                    # [BSS] Energy steps
# | % BLongDir
# |  0.100000E-4 |  0.00000    |  0.00000    # [BSS] [cc] Electric Field
# | %
# | BSEprop= "abs"                   # [BSS] Can be any among abs/jdos/kerr/magn/dich/photolum/esrt
# | BSEdips= "none"                  # [BSS] Can be "trace/none" or "xy/xz/yz" to define off-diagonal rotation plane
# | #WRbsWF                        # [BSS] Write to disk excitonic the WFs
